Folder: InputWaveform/InputWaveForm/OutputCSV

File: OutputFile.csv
Time (s),InputForce (N), Displacement (mm)
0 , 300 , 0.317002
0.02 , 242.7051 , 0.052419
0.04 , 92.7051 , -0.232186
0.06 , -92.7051 , -0.428104
0.08 , -242.7051 , -0.460501
0.1 , -300 , -0.317002
0.12 , -242.7051 , -0.052419
0.14 , -92.7051 , 0.232186
0.16 , 92.7051 , 0.428104
0.18 , 242.7051 , 0.460501
0.2 , 300 , 0.317002
0.22 , 242.7051 , 0.052419
0.24 , 92.7051 , -0.232186
0.26 , -92.7051 , -0.428104
0.28 , -242.7051 , -0.460501
0.3 , -300 , -0.317002
0.32 , -242.7051 , -0.052419
0.34 , -92.7051 , 0.232186
0.36 , 92.7051 , 0.428104
0.38 , 242.7051 , 0.460501
0.4 , 300 , 0.317002
0.42 , 242.7051 , 0.052419
0.44 , 92.7051 , -0.232186
0.46 , -92.7051 , -0.428104
0.48 , -242.7051 , -0.460501
0.5 , -300 , -0.317002
0.52 , -242.7051 , -0.052419
0.54 , -92.7051 , 0.232186
0.56 , 92.7051 , 0.428104
0.58 , 242.7051 , 0.460501
0.6 , 300 , 0.317002
0.62 , 242.7051 , 0.052419
0.64 , 92.7051 , -0.232186
0.66 , -92.7051 , -0.428104
0.68 , -242.7051 , -0.460501
0.7 , -300 , -0.317002
0.72 , -242.7051 , -0.052419
0.74 , -92.7051 , 0.232186
0.76 , 92.7051 , 0.428104
0.78 , 242.7051 , 0.460501
0.8 , 300 , 0.317002
0.82 , 242.7051 , 0.052419
0.84 , 92.7051 , -0.232186
0.86 , -92.7051 , -0.428104
0.88 , -242.7051 , -0.460501
0.9 , -300 , -0.317002
0.92 , -242.7051 , -0.052419
0.94 , -92.7051 , 0.232186
0.96 , 92.7051 , 0.428104
0.98 , 242.7051 , 0.460501
1 , 300 , 0.317002
1.02 , 242.7051 , 0.052419
1.04 , 92.7051 , -0.232186
1.06 , -92.7051 , -0.428104
1.08 , -242.7051 , -0.460501
1.1 , -300 , -0.317002
1.12 , -242.7051 , -0.052419
1.14 , -92.7051 , 0.232186
1.16 , 92.7051 , 0.428104
1.18 , 242.7051 , 0.460501
1.2 , 300 , 0.317002
1.22 , 242.7051 , 0.052419
1.24 , 92.7051 , -0.232186
1.26 , -92.7051 , -0.428104
1.28 , -242.7051 , -0.460501
1.3 , -300 , -0.317002
1.32 , -242.7051 , -0.052419
1.34 , -92.7051 , 0.232186
1.36 , 92.7051 , 0.428104
1.38 , 242.7051 , 0.460501
1.4 , 300 , 0.317002
1.42 , 242.7051 , 0.052419
1.44 , 92.7051 , -0.232186
1.46 , -92.7051 , -0.428104
1.48 , -242.7051 , -0.460501
1.5 , -300 , -0.317002
1.52 , -242.7051 , -0.052419
1.54 , -92.7051 , 0.232186
1.56 , 92.7051 , 0.428104
1.58 , 242.7051 , 0.460501
1.6 , 300 , 0.317002
1.62 , 242.7051 , 0.052419
1.64 , 92.7051 , -0.232186
1.66 , -92.7051 , -0.428104
1.68 , -242.7051 , -0.460501
1.7 , -300 , -0.317002
1.72 , -242.7051 , -0.052419
1.74 , -92.7051 , 0.232186
1.76 , 92.7051 , 0.428104
1.78 , 242.7051 , 0.460501
1.8 , 300 , 0.317002
1.82 , 242.7051 , 0.052419
1.84 , 92.7051 , -0.232186
1.86 , -92.7051 , -0.428104
1.88 , -242.7051 , -0.460501
1.9 , -300 , -0.317002
1.92 , -242.7051 , -0.052419
1.94 , -92.7051 , 0.232186
1.96 , 92.7051 , 0.428104
1.98 , 242.7051 , 0.460501
2 , 300 , 0.317002
2.02 , 242.7051 , 0.052419
2.04 , 92.7051 , -0.232186
2.06 , -92.7051 , -0.428104
2.08 , -242.7051 , -0.460501
2.1 , -300 , -0.317002
2.12 , -242.7051 , -0.052419
2.14 , -92.7051 , 0.232186
2.16 , 92.7051 , 0.428104
2.18 , 242.7051 , 0.460501
2.2 , 300 , 0.317002
2.22 , 242.7051 , 0.052419
2.24 , 92.7051 , -0.232186
2.26 , -92.7051 , -0.428104
2.28 , -242.7051 , -0.460501
2.3 , -300 , -0.317002
2.32 , -242.7051 , -0.052419
2.34 , -92.7051 , 0.232186
2.36 , 92.7051 , 0.428104
2.38 , 242.7051 , 0.460501
2.4 , 300 , 0.317002
2.42 , 242.7051 , 0.052419
2.44 , 92.7051 , -0.232186
2.46 , -92.7051 , -0.428104
2.48 , -242.7051 , -0.460501
2.5 , -300 , -0.317002
2.52 , -242.7051 , -0.052419
2.54 , -92.7051 , 0.232186
2.56 , 92.7051 , 0.428104
2.58 , 242.7051 , 0.460501
2.6 , 300 , 0.317002
2.62 , 242.7051 , 0.052419
2.64 , 92.7051 , -0.232186
2.66 , -92.7051 , -0.428104
2.68 , -242.7051 , -0.460501
2.7 , -300 , -0.317002
2.72 , -242.7051 , -0.052419
2.74 , -92.7051 , 0.232186
2.76 , 92.7051 , 0.428104
2.78 , 242.7051 , 0.460501
2.8 , 300 , 0.317002
2.82 , 242.7051 , 0.052419
2.84 , 92.7051 , -0.232186
2.86 , -92.7051 , -0.428104
2.88 , -242.7051 , -0.460501
2.9 , -300 , -0.317002
2.92 , -242.7051 , -0.052419
2.94 , -92.7051 , 0.232186
2.96 , 92.7051 , 0.428104
2.98 , 242.7051 , 0.460501
3 , 300 , 0.317002
3.02 , 242.7051 , 0.052419
3.04 , 92.7051 , -0.232186
3.06 , -92.7051 , -0.428104
3.08 , -242.7051 , -0.460501
3.1 , -300 , -0.317002
3.12 , -242.7051 , -0.052419
3.14 , -92.7051 , 0.232186
3.16 , 92.7051 , 0.428104
3.18 , 242.7051 , 0.460501
3.2 , 300 , 0.317002
3.22 , 242.7051 , 0.052419
3.24 , 92.7051 , -0.232186
3.26 , -92.7051 , -0.428104
3.28 , -242.7051 , -0.460501
3.3 , -300 , -0.317002
3.32 , -242.7051 , -0.052419
3.34 , -92.7051 , 0.232186
3.36 , 92.7051 , 0.428104
3.38 , 242.7051 , 0.460501
3.4 , 300 , 0.317002
3.42 , 242.7051 , 0.052419
3.44 , 92.7051 , -0.232186
3.46 , -92.7051 , -0.428104
3.48 , -242.7051 , -0.460501
3.5 , -300 , -0.317002
3.52 , -242.7051 , -0.052419
3.54 , -92.7051 , 0.232186
3.56 , 92.7051 , 0.428104
3.58 , 242.7051 , 0.460501
3.6 , 300 , 0.317002
3.62 , 242.7051 , 0.052419
3.64 , 92.7051 , -0.232186
3.66 , -92.7051 , -0.428104
3.68 , -242.7051 , -0.460501
3.7 , -300 , -0.317002
3.72 , -242.7051 , -0.052419
3.74 , -92.7051 , 0.232186
3.76 , 92.7051 , 0.428104
3.78 , 242.7051 , 0.460501
3.8 , 300 , 0.317002
3.82 , 242.7051 , 0.052419
3.84 , 92.7051 , -0.232186
3.86 , -92.7051 , -0.428104
3.88 , -242.7051 , -0.460501
3.9 , -300 , -0.317002
3.92 , -242.7051 , -0.052419
3.94 , -92.7051 , 0.232186
3.96 , 92.7051 , 0.428104
3.98 , 242.7051 , 0.460501
4 , 300 , 0.317002
4.02 , 242.7051 , 0.052419
4.04 , 92.7051 , -0.232186
4.06 , -92.7051 , -0.428104
4.08 , -242.7051 , -0.460501
4.1 , -300 , -0.317002
4.12 , -242.7051 , -0.052419
4.14 , -92.7051 , 0.232186
4.16 , 92.7051 , 0.428104
4.18 , 242.7051 , 0.460501
4.2 , 300 , 0.317002
4.22 , 242.7051 , 0.052419
4.24 , 92.7051 , -0.232186
4.26 , -92.7051 , -0.428104
4.28 , -242.7051 , -0.460501
4.3 , -300 , -0.317002
4.32 , -242.7051 , -0.052419
4.34 , -92.7051 , 0.232186
4.36 , 92.7051 , 0.428104
4.38 , 242.7051 , 0.460501
4.4 , 300 , 0.317002
4.42 , 242.7051 , 0.052419
4.44 , 92.7051 , -0.232186
4.46 , -92.7051 , -0.428104
4.48 , -242.7051 , -0.460501
4.5 , -300 , -0.317002
4.52 , -242.7051 , -0.052419
4.54 , -92.7051 , 0.232186
4.56 , 92.7051 , 0.428104
4.58 , 242.7051 , 0.460501
4.6 , 300 , 0.317002
4.62 , 242.7051 , 0.052419
4.64 , 92.7051 , -0.232186
4.66 , -92.7051 , -0.428104
4.68 , -242.7051 , -0.460501
4.7 , -300 , -0.317002
4.72 , -242.7051 , -0.052419
4.74 , -92.7051 , 0.232186
4.76 , 92.7051 , 0.428104
4.78 , 242.7051 , 0.460501
4.8 , 300 , 0.317002
4.82 , 242.7051 , 0.052419
4.84 , 92.7051 , -0.232186
4.86 , -92.7051 , -0.428104
4.88 , -242.7051 , -0.460501
4.9 , -300 , -0.317002
4.92 , -242.7051 , -0.052419
4.94 , -92.7051 , 0.232186
4.96 , 92.7051 , 0.428104
4.98 , 242.7051 , 0.460501
5 , 300 , 0.317002